{
  "resourceType": "Bundle",
  "id": "fhir-with-order-id-and-codes",
  "type": "collection",
  "timestamp": "2024-01-15T10:30:00Z",
  "total": 5,
  "entry": [
    {
      "fullUrl": "urn:uuid:service-request-12345",
      "resource": {
        "resourceType": "ServiceRequest",
        "id": "29685",
        "status": "completed",
        "intent": "order",
        "category": [
          {
            "coding": [
              {
                "system": "http://terminology.hl7.org/CodeSystem/v2-0074",
                "code": "LAB",
                "display": "Laboratory"
              }
            ]
          }
        ],
        "code": {
          "coding": [
            {
              "system": "http://loinc.org",
              "code": "24323-8",
              "display": "Comprehensive metabolic panel"
            }
          ]
        },
        "subject": {
          "reference": "Patient/test-patient"
        },
        "identifier": [
          {
            "system": "http://hospital.example.org/orders",
            "value": "29685"
          }
        ],
        "requester": {
          "reference": "Practitioner/dr-smith",
          "display": "Dr. John Smith"
        }
      }
    },
    {
      "fullUrl": "urn:uuid:practitioner-dr-smith",
      "resource": {
        "resourceType": "Practitioner",
        "id": "dr-smith",
        "name": [
          {
            "family": "Smith",
            "given": ["John"]
          }
        ]
      }
    },
    {
      "fullUrl": "urn:uuid:obs-glucose",
      "resource": {
        "resourceType": "Observation",
        "id": "obs-glucose",
        "status": "final",
        "category": [
          {
            "coding": [
              {
                "system": "http://terminology.hl7.org/CodeSystem/observation-category",
                "code": "laboratory",
                "display": "Laboratory"
              }
            ]
          }
        ],
        "code": {
          "coding": [
            {
              "system": "http://loinc.org",
              "code": "33747-0",
              "display": "Glucose"
            }
          ]
        },
        "subject": {
          "reference": "Patient/test-patient"
        },
        "basedOn": [
          {
            "reference": "urn:uuid:96441",
            "identifier": {
              "system": "http://hospital.example.org/orders",
              "value": "0RBowqYDPdMVvcPcgh2c"
            }
          }
        ],
        "effectiveDateTime": "2024-01-15T10:30:00Z",
        "valueQuantity": {
          "value": 98,
          "unit": "mg/dL",
          "system": "http://unitsofmeasure.org",
          "code": "mg/dL"
        },
        "interpretation": [
          {
            "coding": [
              {
                "system": "http://terminology.hl7.org/CodeSystem/v3-ObservationInterpretation",
                "code": "N",
                "display": "Normal"
              }
            ]
          }
        ]
      }
    },
    {
      "fullUrl": "urn:uuid:obs-sodium",
      "resource": {
        "resourceType": "Observation",
        "id": "obs-sodium",
        "status": "final",
        "category": [
          {
            "coding": [
              {
                "system": "http://terminology.hl7.org/CodeSystem/observation-category",
                "code": "laboratory",
                "display": "Laboratory"
              }
            ]
          }
        ],
        "code": {
          "coding": [
            {
              "system": "http://loinc.org",
              "code": "2951-2",
              "display": "Sodium"
            }
          ]
        },
        "subject": {
          "reference": "Patient/test-patient"
        },
        "basedOn": [
          {
            "reference": "urn:uuid:service-request-12345",
            "identifier": {
              "system": "http://hospital.example.org/orders",
              "value": "12345"
            }
          }
        ],
        "effectiveDateTime": "2024-01-15T10:30:00Z",
        "valueQuantity": {
          "value": 142,
          "unit": "mEq/L",
          "system": "http://unitsofmeasure.org",
          "code": "mEq/L"
        },
        "interpretation": [
          {
            "coding": [
              {
                "system": "http://terminology.hl7.org/CodeSystem/v3-ObservationInterpretation",
                "code": "N",
                "display": "Normal"
              }
            ]
          }
        ]
      }
    },
    {
      "fullUrl": "urn:uuid:obs-wbc",
      "resource": {
        "resourceType": "Observation",
        "id": "obs-wbc",
        "status": "final",
        "category": [
          {
            "coding": [
              {
                "system": "http://terminology.hl7.org/CodeSystem/observation-category",
                "code": "laboratory",
                "display": "Laboratory"
              }
            ]
          }
        ],
        "code": {
          "coding": [
            {
              "system": "http://loinc.org",
              "code": "33747-1",
              "display": "White Blood Cell Count"
            }
          ]
        },
        "subject": {
          "reference": "Patient/test-patient"
        },
        "basedOn": [
          {
            "reference": "urn:uuid:service-request-12345",
            "identifier": {
              "system": "http://hospital.example.org/orders",
              "value": "12345"
            }
          }
        ],
        "effectiveDateTime": "2024-01-15T10:30:00Z",
        "valueQuantity": {
          "value": 7.8,
          "unit": "10*3/uL",
          "system": "http://unitsofmeasure.org",
          "code": "10*3/uL"
        },
        "interpretation": [
          {
            "coding": [
              {
                "system": "http://terminology.hl7.org/CodeSystem/v3-ObservationInterpretation",
                "code": "N",
                "display": "Normal"
              }
            ]
          }
        ]
      }
    }
  ]
}
